{
  "resourceType": "Bundle",
  "id": "1a4b4931-c79c-4b6d-aeae-752514837e5b",
  "type": "message",
  "entry": [
    {
      "resource": {
        "resourceType": "MessageHeader",
        "id": "17dfbd6e-befb-4bee-8f84-fa77ccb3f687",
        "event": {
          "system": "http://hl7.org/fhir/message-events",
          "code": "MedicationAdministration-Recording"
        },
        "destination": [
          {
            "name": "DHIR",
            "endpoint": "https://wsgateway.prod.ehealthontario.ca/API/FHIR/Immunizations/v3/clinician/"
          }
        ],
        "sender": {
          "display": "McMaster Hospital"
        },
        "timestamp": "2018-04-10T09:14:04.264-04:00",
        "author": {
          "reference": "Practitioner/999998"
        },
        "source": {
          "name": "Oscar EMR",
          "software": "Oscar",
          "version": "15 development",
          "endpoint": "https://127.0.0.1:8081/oscar"
        },
        "responsible": {
          "reference": "Organization/792c9448-d6eb-4ef8-807c-c2683e32451b"
        },
        "focus": [
          {
            "reference": "Patient/55"
          }
        ]
      }
    },
    {
      "resource": {
        "resourceType": "Organization",
        "id": "792c9448-d6eb-4ef8-807c-c2683e32451b",
        "identifier": [
          {
            "system": "https://ehealthontario.ca/API/FHIR/NamingSystem/ca-on-panorama-phu-id",
            "value": "20"
          }
        ],
        "name": "Hamilton Public Health services"
      }
    },
    {
      "resource": {
        "resourceType": "Practitioner",
        "id": "1",
        "identifier": [
          {
            "system": "https://ehealthontario.ca/API/FHIR/NamingSystem/ca-on-license-nurse",
            "value": "8976590"
          }
        ],
        "name": [
          {
            "family": "Smith",
            "given": [
              "Tim"
            ]
          }
        ],
        "qualification": [
          {
            "code": {
              "coding": [
                {
                  "system": "https://ehealthontario.ca/API/FHIR/NamingSystem/ca-on-immunizations-practitioner-designation",
                  "code": "RN",
                  "display": "RN"
                }
              ]
            }
          }
        ]
      }
    },
    {
      "resource": {
        "resourceType": "Immunization",
        "id": "290",
        "status": "completed",
        "notGiven": false,
        "vaccineCode": {
          "coding": [
            {
              "system": "http://snomed.info/sct",
              "code": "61153008",
              "display": "Priorix®"
            }
          ]
        },
        "patient": {
          "reference": "Patient/55"
        },
        "date": "2018-04-09T21:44:00-04:00",
        "primarySource": true,
        "lotNumber": "AMJRD332AB",
        "expirationDate": "2018-06-30",
        "site": {
          "text": "site"
        },
        "route": {
          "coding": [
            {
              "system": "http://snomed.info/sct",
              "code": "IM",
              "display": "IM"
            }
          ]
        },
        "doseQuantity": {
          "value": 1.0,
          "unit": "cc"
        },
        "practitioner": [
          {
            "role": {
              "coding": [
                {
                  "system": "http://hl7.org/fhir/v2/0443",
                  "code": "AP",
                  "display": "AdministeringProvider"
                }
              ]
            },
            "actor": {
              "reference": "Practitioner/1"
            }
          }
        ],
        "explanation": {
          "reason": [
            {
              "coding": [
                {
                  "system": "https://ehealthontario.ca/API/FHIR/NamingSystem/ca-on-immunizations-reason",
                  "code": "routine",
                  "display": "Routine"
                }
              ]
            }
          ]
        }
      }
    },
    {
      "resource": {
        "resourceType": "Practitioner",
        "id": "999998",
        "identifier": [
          {
            "system": "https://ehealthontario.ca/API/FHIR/NamingSystem/ca-on-provider-oneid",
            "value": "MARC.DUMONTIERTEST@ONEID.ON.CA"
          }
        ],
        "name": [
          {
            "family": "oscardoc",
            "given": [
              "doctor"
            ]
          }
        ],
        "telecom": [
          {
            "system": "phone",
            "value": "416-111-1111",
            "use": "work"
          }
        ]
      }
    },
    {
      "resource": {
        "resourceType": "Patient",
        "id": "55",
        "identifier": [
          {
            "system": "http://ehealthontario.ca/API/FHIR/NamingSystem/ca-on-patient-hcn",
            "value": "1111777775"
          }
        ],
        "name": [
          {
            "family": "DHIR",
            "given": [
              "DHIR"
            ]
          }
        ],
        "telecom": [
          {
            "system": "phone",
            "value": "905-444-4444",
            "use": "home"
          }
        ],
        "gender": "male",
        "birthDate": "2010-06-15",
        "address": [
          {
            "use": "home",
            "line": [
              "1 Main St"
            ],
            "city": "Hamilton",
            "state": "ON",
            "postalCode": "N0G 1P0"
          }
        ]
      }
    }
  ]
}
