{
  "resourceType": "Bundle",
  "id": "268aed34-2319-4542-8c9f-e5dfed8c15dd",
  "type": "message",
  "entry": [
    {
      "resource": {
        "resourceType": "MessageHeader",
        "id": "5188952a-b690-425a-a636-f0b174d88b0a",
        "event": {
          "system": "http://hl7.org/fhir/message-type",
          "code": "MedicationAdministration-Recording"
        },
        "destination": [
          {
            "name": "DHIR",
            "endpoint": "https://wsgateway.prod.ehealthontario.ca/API/FHIR/Immunizations/v3/clinician/"
          }
        ],
        "sender": {
          "display": "McMaster Hospital"
        },
        "timestamp": "2018-04-07T17:31:15.658-04:00",
        "author": {
          "reference": "Practitioner/999998"
        },
        "source": {
          "name": "Oscar EMR",
          "software": "Oscar",
          "version": "15 development",
          "endpoint": "https://127.0.0.1:8081/oscar"
        },
        "responsible": {
          "reference": "Organization/dbdf2320-1478-400e-8a96-e14c9991a66d"
        },
        "focus": [
          {
            "reference": "Patient/55"
          }
        ]
      }
    },
    {
      "resource": {
        "resourceType": "Organization",
        "id": "dbdf2320-1478-400e-8a96-e14c9991a66d",
        "identifier": [
          {
            "system": "https://ehealthontario.ca/API/FHIR/NamingSystem/ca-on-panorama-phu-id",
            "value": "20"
          }
        ],
        "name": "Hamilton Public Health services"
      }
    },
    {
      "resource": {
        "resourceType": "Practitioner",
        "id": "1",
        
        "identifier": [
          {
            "system": "https://ehealthontario.ca/API/FHIR/NamingSystem/ca-on-license-nurse",
            "value": "8976590"
          }
        ],
        "name": [
          {
            "family": "Smith",
            "given": [
              "Tim"
            ]
          }
        ],
        "qualification": [
          {
            "code": {
              "coding": [
                {
                  "system": "https://ehealthontario.ca/API/FHIR/NamingSystem/ca-on-immunizations-practitioner-designation",
                  "code": "MD",
                  "display": "MD"
                }
              ]
            }
          }
        ]
      }
    },
    {
      "resource": {
        "resourceType": "Immunization",
        "id": "217",
        "extension": [
          {
            "url": "https://ehealthontario.ca/API/FHIR/StructureDefinition/ca-on-extension-estimated-date",
            "valueBoolean": false
          }
        ],
        "status": "completed",
        "notGiven": false,
        "vaccineCode": {
          "coding": [
            {
              "system": "http://snomed.info/sct",
              "code": "61153008",
              "display": "manufacturer Priorix®"
            }
          ]
        },
        "patient": {
          "reference": "Patient/55"
        },
        "date": "2018-04-07T16:50:00-04:00",
        "primarySource": true,
        "lotNumber": "AMJRD417AA",
        "expirationDate": "2018-12-31",
        "site": {
          "text": "location"
        },
        "route": {
          "coding": [
            {
              "system": "http://snomed.info/sct",
              "code": "route",
              "display": "route"
            }
          ]
        },
        "doseQuantity": {
          "value": 1.0,
          "unit": "cc"
        },
        "practitioner": [
          {
            "role": {
              "coding": [
                {
                  "system": "http://hl7.org/fhir/v2/0443",
                  "code": "AP",
                  "display": "AdministeringProvider"
                }
              ]
            },
            "actor": {
              "reference": "Practitioner/1"
            }
          }
        ],
        "explanation": {
          "reason": [
            {
              "coding": [
                {
                  "system": "https://ehealthontario.ca/API/FHIR/NamingSystem/ca-on-immunizations-reason",
                  "code": "routine",
                  "display": "Routine"
                }
              ]
            }
          ]
        }
      }
    },
    {
      "resource": {
        "resourceType": "Practitioner",
        "id": "999998",
        "identifier": [
          {
            "system": "https://ehealthontario.ca/API/FHIR/NamingSystem/ca-on-provider-oneid",
            "value": "MARC.DUMONTIERTEST@ONEID.ON.CA"
          }
        ],
        "name": [
          {
            "family": "oscardoc",
            "given": [
              "doctor"
            ]
          }
        ],
        "telecom": [
          {
            "system": "phone",
            "value": "416-111-1111",
            "use": "work"
          }
        ]
      }
    },
    {
      "resource": {
        "resourceType": "Patient",
        "id": "55",
        "identifier": [
          {
            "system": "http://ehealthontario.ca/API/FHIR/NamingSystem/ca-on-patient-hcn",
            "value": "1111777775"
          }
        ],
        "name": [
          {
            "family": "DHIR",
            "given": [
              "DHIR"
            ]
          }
        ],
        "telecom": [
          {
            "system": "phone",
            "value": "905-444-4444",
            "use": "home"
          }
        ],
        "gender": "male",
        "birthDate": "2010-06-15",
        "address": [
          {
            "use": "home",
            "line": [
              "1 Main St"
            ],
            "city": "Hamilton",
            "state": "ON",
            "postalCode": "N0G 1P0"
          }
        ]
      }
    }
  ]
}

